word,colour,stim_condition,correct_res,thisN,thisTrialN,thisRepN,key_resp.keys,key_resp.corr,key_resp.rt,key_resp.duration,trials.thisRepN,trials.thisTrialN,trials.thisN,trials.thisIndex,thisRow.t,notes,ins.started,text_2.started,ins.stopped,trial.started,fixation.started,fixation.stopped,text.started,key_resp.started,text.stopped,trial.stopped,trials.key_resp.keys,trials.key_resp.corr,trials.key_resp.rt,trials.key_resp.duration,thankyou_.started,text_3.started,text_3.stopped,thankyou_.stopped,participant,session,date,expName,expVersion,psychopyVersion,frameRate,expStart,
,,,,,,,,,,,,,,,,,0.0017058000012184493,0.004387099997984478,1.0023283999980777,,,,,,,,,,,,,,,,1,"001",2025-08-25_23h19.39.983,stroop task,,2025.2.0,60.109483412714454,2025-08-25 23h19.40.076762 +0530,
BLUE,blue,c,b,0,0,0,r,0,13.503698600001371,None,0,0,0,3,1.0239204999998037,,,,,1.0196649999998044,1.0239204999998037,1.501937299999554,1.501937299999554,1.501937299999554,6.000622999999905,15.014575799999875,r,0,13.503698600001371,None,,,,,1,"001",2025-08-25_23h19.39.983,stroop task,,2025.2.0,60.109483412714454,2025-08-25 23h19.40.076762 +0530,
BLUE,red,I,r,1,1,0,r,1,1.9408753000025172,None,0,1,1,2,15.030796099999861,,,,,15.015479300000152,15.030796099999861,15.513866599998437,15.513866599998437,15.513866599998437,,17.46352939999997,r,1,1.9408753000025172,None,,,,,1,"001",2025-08-25_23h19.39.983,stroop task,,2025.2.0,60.109483412714454,2025-08-25 23h19.40.076762 +0530,
RED,blue,I,b,2,2,0,b,1,1.796052800000325,None,0,2,2,1,17.479881499999465,,,,,17.470399099998758,17.479881499999465,17.963240900000528,17.963240900000528,17.963240900000528,,19.76314089999869,b,1,1.796052800000325,None,,,,,1,"001",2025-08-25_23h19.39.983,stroop task,,2025.2.0,60.109483412714454,2025-08-25 23h19.40.076762 +0530,
RED,red,C,r,3,3,0,r,1,0.6280342999998538,None,0,3,3,0,19.778990499999054,,,,,19.763995400000567,19.778990499999054,20.262218399999256,20.262218399999256,20.262218399999256,,20.89577030000146,r,1,0.6280342999998538,None,,,,,1,"001",2025-08-25_23h19.39.983,stroop task,,2025.2.0,60.109483412714454,2025-08-25 23h19.40.076762 +0530,
RED,blue,I,b,4,0,1,b,1,1.3108743999982835,None,1,0,4,1,20.912103300001036,,,,,20.89627710000059,20.912103300001036,21.39544979999846,21.39544979999846,21.39544979999846,,22.712087200001406,b,1,1.3108743999982835,None,,,,,1,"001",2025-08-25_23h19.39.983,stroop task,,2025.2.0,60.109483412714454,2025-08-25 23h19.40.076762 +0530,
BLUE,blue,c,b,5,1,1,b,1,1.2886571999988519,None,1,1,5,3,22.728222099998675,,,,,22.71599580000111,22.728222099998675,23.211428200000228,23.211428200000228,23.211428200000228,,24.511746699998184,b,1,1.2886571999988519,None,,,,,1,"001",2025-08-25_23h19.39.983,stroop task,,2025.2.0,60.109483412714454,2025-08-25 23h19.40.076762 +0530,
BLUE,red,I,r,6,2,1,r,1,1.5145310000007157,None,1,2,6,2,24.527927700000873,,,,,24.512996000001294,24.527927700000873,25.010870300000533,25.010870300000533,25.010870300000533,,26.527680399998644,r,1,1.5145310000007157,None,,,,,1,"001",2025-08-25_23h19.39.983,stroop task,,2025.2.0,60.109483412714454,2025-08-25 23h19.40.076762 +0530,
RED,red,C,r,7,3,1,r,1,0.6769554999991669,None,1,3,7,0,26.54354560000138,,,,,26.531825999998546,26.54354560000138,27.026820700000826,27.026820700000826,27.026820700000826,,27.710600700000214,r,1,0.6769554999991669,None,,,,,1,"001",2025-08-25_23h19.39.983,stroop task,,2025.2.0,60.109483412714454,2025-08-25 23h19.40.076762 +0530,
RED,blue,I,b,8,0,2,b,1,1.6453510999999708,None,2,0,8,1,27.72664799999984,,,,,27.71148170000015,27.72664799999984,28.209902800001146,28.209902800001146,28.209902800001146,,29.859816399999545,b,1,1.6453510999999708,None,,,,,1,"001",2025-08-25_23h19.39.983,stroop task,,2025.2.0,60.109483412714454,2025-08-25 23h19.40.076762 +0530,
BLUE,red,I,r,9,1,2,r,1,0.9927113999983703,None,2,1,9,2,29.875755900000513,,,,,29.86427619999813,29.875755900000513,30.359048499998607,30.359048499998607,30.359048499998607,,31.35908019999988,r,1,0.9927113999983703,None,,,,,1,"001",2025-08-25_23h19.39.983,stroop task,,2025.2.0,60.109483412714454,2025-08-25 23h19.40.076762 +0530,
BLUE,blue,c,b,10,2,2,b,1,0.8004116999982216,None,2,2,10,3,31.375329200000124,,,,,31.359916299999895,31.375329200000124,31.85841679999794,31.85841679999794,31.85841679999794,,32.67554369999925,b,1,0.8004116999982216,None,,,,,1,"001",2025-08-25_23h19.39.983,stroop task,,2025.2.0,60.109483412714454,2025-08-25 23h19.40.076762 +0530,
RED,red,C,r,11,3,2,r,1,1.2037176999983785,None,2,3,11,0,32.69164799999999,,,,,32.67933410000114,32.69164799999999,33.17482670000027,33.17482670000027,33.17482670000027,,34.391765000000305,r,1,1.2037176999983785,None,,,,,1,"001",2025-08-25_23h19.39.983,stroop task,,2025.2.0,60.109483412714454,2025-08-25 23h19.40.076762 +0530,
BLUE,red,I,r,12,0,3,r,1,0.9439224000016111,None,3,0,12,2,34.40761930000008,,,,,34.396323799999664,34.40761930000008,34.89084179999918,34.89084179999918,34.89084179999918,,35.84139099999811,r,1,0.9439224000016111,None,,,,,1,"001",2025-08-25_23h19.39.983,stroop task,,2025.2.0,60.109483412714454,2025-08-25 23h19.40.076762 +0530,
BLUE,blue,c,b,13,1,3,b,1,0.8275011999976414,None,3,1,13,3,35.85716820000016,,,,,35.842352700001356,35.85716820000016,36.357065899999725,36.357065899999725,36.357065899999725,,37.19038989999899,b,1,0.8275011999976414,None,,,,,1,"001",2025-08-25_23h19.39.983,stroop task,,2025.2.0,60.109483412714454,2025-08-25 23h19.40.076762 +0530,
RED,blue,I,b,14,2,3,r,0,0.7901125000025786,None,3,2,14,1,37.20665269999881,,,,,37.19365879999896,37.20665269999881,37.68988249999893,37.68988249999893,37.68988249999893,,38.490249099999346,r,0,0.7901125000025786,None,,,,,1,"001",2025-08-25_23h19.39.983,stroop task,,2025.2.0,60.109483412714454,2025-08-25 23h19.40.076762 +0530,
RED,red,C,r,15,3,3,r,1,1.04605520000041,None,3,3,15,0,38.50640099999873,,,,,38.491143600000214,38.50640099999873,38.989564299998165,38.989564299998165,38.989564299998165,,40.039973399998416,r,1,1.04605520000041,None,,,,,1,"001",2025-08-25_23h19.39.983,stroop task,,2025.2.0,60.109483412714454,2025-08-25 23h19.40.076762 +0530,
RED,blue,I,b,16,0,4,b,1,1.356027500001801,None,4,0,16,1,40.05581959999836,,,,,40.04143649999969,40.05581959999836,40.555660800000624,40.555660800000624,40.555660800000624,,41.922754799998074,b,1,1.356027500001801,None,,,,,1,"001",2025-08-25_23h19.39.983,stroop task,,2025.2.0,60.109483412714454,2025-08-25 23h19.40.076762 +0530,
BLUE,blue,c,b,17,1,4,b,1,1.4502127000014298,None,4,1,17,3,41.93853600000148,,,,,41.92689260000043,41.93853600000148,42.421655800000735,42.421655800000735,42.421655800000735,,43.88839670000016,b,1,1.4502127000014298,None,,,,,1,"001",2025-08-25_23h19.39.983,stroop task,,2025.2.0,60.109483412714454,2025-08-25 23h19.40.076762 +0530,
RED,red,C,r,18,2,4,r,1,0.7374788999986777,None,4,2,18,0,43.90448059999835,,,,,43.89169440000114,43.90448059999835,44.38785009999992,44.38785009999992,44.38785009999992,,45.13801859999876,r,1,0.7374788999986777,None,,,,,1,"001",2025-08-25_23h19.39.983,stroop task,,2025.2.0,60.109483412714454,2025-08-25 23h19.40.076762 +0530,
BLUE,red,I,r,19,3,4,r,1,1.3690281000017421,None,4,3,19,2,45.15395200000057,,,,,45.14238359999945,45.15395200000057,45.637198299999,45.637198299999,45.637198299999,,47.02024170000004,r,1,1.3690281000017421,None,,,,,1,"001",2025-08-25_23h19.39.983,stroop task,,2025.2.0,60.109483412714454,2025-08-25 23h19.40.076762 +0530,
RED,blue,I,b,20,0,5,b,1,1.7903412000014214,None,5,0,20,1,47.036582000000635,,,,,47.02276630000051,47.036582000000635,47.52000589999807,47.52000589999807,47.52000589999807,,49.319531400000415,b,1,1.7903412000014214,None,,,,,1,"001",2025-08-25_23h19.39.983,stroop task,,2025.2.0,60.109483412714454,2025-08-25 23h19.40.076762 +0530,
RED,red,C,r,21,1,5,r,1,0.9397910999978194,None,5,1,21,0,49.33606879999934,,,,,49.31997689999844,49.33606879999934,49.81903590000002,49.81903590000002,49.81903590000002,,50.76962650000132,r,1,0.9397910999978194,None,,,,,1,"001",2025-08-25_23h19.39.983,stroop task,,2025.2.0,60.109483412714454,2025-08-25 23h19.40.076762 +0530,
BLUE,red,I,r,22,2,5,r,1,1.4455779000018083,None,5,2,22,2,50.785447499998554,,,,,50.77422260000094,50.785447499998554,51.28533510000125,51.28533510000125,51.28533510000125,,52.73567009999897,r,1,1.4455779000018083,None,,,,,1,"001",2025-08-25_23h19.39.983,stroop task,,2025.2.0,60.109483412714454,2025-08-25 23h19.40.076762 +0530,
BLUE,blue,c,b,23,3,5,b,1,1.491363500001171,None,5,3,23,3,52.75160450000112,,,,,52.736660499998834,52.75160450000112,53.234776299999794,53.234776299999794,53.234776299999794,,54.73440059999848,b,1,1.491363500001171,None,,,,,1,"001",2025-08-25_23h19.39.983,stroop task,,2025.2.0,60.109483412714454,2025-08-25 23h19.40.076762 +0530,
RED,red,C,r,24,0,6,r,1,0.8659320000006119,None,6,0,24,0,54.75100459999885,,,,,54.73632499999803,54.75100459999885,55.23422510000091,55.23422510000091,55.23422510000091,,56.10158489999958,r,1,0.8659320000006119,None,,,,,1,"001",2025-08-25_23h19.39.983,stroop task,,2025.2.0,60.109483412714454,2025-08-25 23h19.40.076762 +0530,
BLUE,blue,c,b,25,1,6,b,1,0.8438134999996691,None,6,1,25,3,56.117102299998805,,,,,56.1059024999995,56.117102299998805,56.617118900001515,56.617118900001515,56.617118900001515,,57.46734809999907,b,1,0.8438134999996691,None,,,,,1,"001",2025-08-25_23h19.39.983,stroop task,,2025.2.0,60.109483412714454,2025-08-25 23h19.40.076762 +0530,
RED,blue,I,b,26,2,6,r,0,0.7925293000007514,None,6,2,26,1,57.4832009999991,,,,,57.47263580000072,57.4832009999991,57.98323579999851,57.98323579999851,57.98323579999851,,58.78356859999985,r,0,0.7925293000007514,None,,,,,1,"001",2025-08-25_23h19.39.983,stroop task,,2025.2.0,60.109483412714454,2025-08-25 23h19.40.076762 +0530,
BLUE,red,I,r,27,3,6,r,1,2.9182059000013396,None,6,3,27,2,58.79939789999844,,,,,58.78784960000121,58.79939789999844,59.28265729999839,59.28265729999839,59.28265729999839,,62.215594500001316,r,1,2.9182059000013396,None,,,,,1,"001",2025-08-25_23h19.39.983,stroop task,,2025.2.0,60.109483412714454,2025-08-25 23h19.40.076762 +0530,
RED,red,C,r,28,0,7,r,1,1.1917388000001665,None,7,0,28,0,62.23187830000097,,,,,62.219526900000346,62.23187830000097,62.71499229999972,62.71499229999972,62.71499229999972,,63.914987699998164,r,1,1.1917388000001665,None,,,,,1,"001",2025-08-25_23h19.39.983,stroop task,,2025.2.0,60.109483412714454,2025-08-25 23h19.40.076762 +0530,
BLUE,blue,c,b,29,1,7,b,1,0.8975325000028533,None,7,1,29,3,63.93104780000067,,,,,63.9193008000002,63.93104780000067,64.41420179999841,64.41420179999841,64.41420179999841,,65.31462969999848,b,1,0.8975325000028533,None,,,,,1,"001",2025-08-25_23h19.39.983,stroop task,,2025.2.0,60.109483412714454,2025-08-25 23h19.40.076762 +0530,
BLUE,red,I,r,30,2,7,r,1,1.369441700000607,None,7,2,30,2,65.33071170000039,,,,,65.31548180000027,65.33071170000039,65.8141500999991,65.8141500999991,65.8141500999991,,67.19803839999804,r,1,1.369441700000607,None,,,,,1,"001",2025-08-25_23h19.39.983,stroop task,,2025.2.0,60.109483412714454,2025-08-25 23h19.40.076762 +0530,
RED,blue,I,b,31,3,7,b,1,2.062305900002684,None,7,3,31,1,67.21373500000118,,,,,67.20228230000066,67.21373500000118,67.69712399999844,67.69712399999844,67.69712399999844,,69.76383839999835,b,1,2.062305900002684,None,,,,,1,"001",2025-08-25_23h19.39.983,stroop task,,2025.2.0,60.109483412714454,2025-08-25 23h19.40.076762 +0530,
BLUE,red,I,r,32,0,8,r,1,1.0654189999986556,None,8,0,32,2,69.7795815999998,,,,,69.76763249999931,69.7795815999998,70.26291990000027,70.26291990000027,70.26291990000027,,71.32991330000004,r,1,1.0654189999986556,None,,,,,1,"001",2025-08-25_23h19.39.983,stroop task,,2025.2.0,60.109483412714454,2025-08-25 23h19.40.076762 +0530,
RED,red,C,r,33,1,8,r,1,0.7880992999998853,None,8,1,33,0,71.38898659999904,,,,,71.38690639999913,71.38898659999904,71.82893949999925,71.82893949999925,71.82893949999925,,72.62969819999853,r,1,0.7880992999998853,None,,,,,1,"001",2025-08-25_23h19.39.983,stroop task,,2025.2.0,60.109483412714454,2025-08-25 23h19.40.076762 +0530,
RED,blue,I,b,34,2,8,b,1,0.7523470999985875,None,8,2,34,1,72.64563949999865,,,,,72.6306024000005,72.64563949999865,73.14536429999862,73.14536429999862,73.14536429999862,,73.91263199999958,b,1,0.7523470999985875,None,,,,,1,"001",2025-08-25_23h19.39.983,stroop task,,2025.2.0,60.109483412714454,2025-08-25 23h19.40.076762 +0530,
BLUE,blue,c,b,35,3,8,b,1,0.5742926999992051,None,8,3,35,3,73.92818120000084,,,,,73.91720499999792,73.92818120000084,74.41172749999896,74.41172749999896,74.41172749999896,,74.99550269999963,b,1,0.5742926999992051,None,,,,,1,"001",2025-08-25_23h19.39.983,stroop task,,2025.2.0,60.109483412714454,2025-08-25 23h19.40.076762 +0530,
RED,blue,I,b,36,0,9,b,1,1.5152301999987685,None,9,0,36,1,75.01115009999921,,,,,75.00007600000026,75.01115009999921,75.49463950000063,75.49463950000063,75.49463950000063,,77.01142199999958,b,1,1.5152301999987685,None,,,,,1,"001",2025-08-25_23h19.39.983,stroop task,,2025.2.0,60.109483412714454,2025-08-25 23h19.40.076762 +0530,
BLUE,blue,c,b,37,1,9,b,1,0.46219189999828814,None,9,1,37,3,77.02735670000038,,,,,77.01589080000122,77.02735670000038,77.51054889999796,77.51054889999796,77.51054889999796,,77.97753689999809,b,1,0.46219189999828814,None,,,,,1,"001",2025-08-25_23h19.39.983,stroop task,,2025.2.0,60.109483412714454,2025-08-25 23h19.40.076762 +0530,
RED,red,C,r,38,2,9,r,1,0.7410726999987673,None,9,2,38,0,77.99354229999881,,,,,77.98166119999951,77.99354229999881,78.47686859999885,78.47686859999885,78.47686859999885,,79.22703929999989,r,1,0.7410726999987673,None,,,,,1,"001",2025-08-25_23h19.39.983,stroop task,,2025.2.0,60.109483412714454,2025-08-25 23h19.40.076762 +0530,
BLUE,red,I,r,39,3,9,r,1,0.31299850000141305,None,9,3,39,2,79.24321829999826,,,,,79.2306013999987,79.24321829999826,79.72659959999874,79.72659959999874,79.72659959999874,,80.04377329999988,r,1,0.31299850000141305,None,,,,,1,"001",2025-08-25_23h19.39.983,stroop task,,2025.2.0,60.109483412714454,2025-08-25 23h19.40.076762 +0530,
,,,,,,,,,,,,,,,,,,,,,,,,,,,,,,,80.04398880000008,80.05954289999863,81.05946499999845,81.04334739999831,1,"001",2025-08-25_23h19.39.983,stroop task,,2025.2.0,60.109483412714454,2025-08-25 23h19.40.076762 +0530,
