word,colour,stim_condition,correct_res,thisN,thisTrialN,thisRepN,key_resp.keys,key_resp.corr,key_resp.rt,key_resp.duration,trials.thisRepN,trials.thisTrialN,trials.thisN,trials.thisIndex,thisRow.t,notes,ins.started,text_2.started,text_2.stopped,ins.stopped,trial.started,fixation.started,fixation.stopped,text.started,key_resp.started,trial.stopped,trials.key_resp.keys,trials.key_resp.corr,trials.key_resp.rt,trials.key_resp.duration,thankyou_.started,text_3.started,text_3.stopped,thankyou_.stopped,participant,session,date,expName,expVersion,psychopyVersion,frameRate,expStart,
,,,,,,,,,,,,,,,,,0.0017711000036797486,0.004238699999405071,1.0197827000010875,0.9973004999992554,,,,,,,,,,,,,,,3,"001",2025-08-26_09h37.01.995,stroop task,,2025.2.0,60.15015885681194,2025-08-26 09h37.02.065857 +0530,
RED,red,C,r,0,0,0,r,1,1.7068332999988343,None,0,0,0,0,1.0197827000010875,,,,,,1.0158217000061995,1.0197827000010875,1.5135217000060948,1.5135217000060948,1.5135217000060948,3.2395510000060312,r,1,1.7068332999988343,None,,,,,3,"001",2025-08-26_09h37.01.995,stroop task,,2025.2.0,60.15015885681194,2025-08-26 09h37.02.065857 +0530,
BLUE,red,I,r,1,1,0,r,1,1.1014117999948212,None,0,1,1,2,3.2524556999997003,,,,,,3.2492607000021962,3.2524556999997003,3.7459914999999455,3.7459914999999455,3.7459914999999455,4.863404800002172,r,1,1.1014117999948212,None,,,,,3,"001",2025-08-26_09h37.01.995,stroop task,,2025.2.0,60.15015885681194,2025-08-26 09h37.02.065857 +0530,
RED,blue,I,b,2,2,0,b,1,1.0461259000003338,None,0,2,2,1,4.87895810000191,,,,,,4.8685081000003265,4.87895810000191,5.378925299999537,5.378925299999537,5.378925299999537,6.42936240000563,b,1,1.0461259000003338,None,,,,,3,"001",2025-08-26_09h37.01.995,stroop task,,2025.2.0,60.15015885681194,2025-08-26 09h37.02.065857 +0530,
BLUE,blue,c,b,3,3,0,b,1,0.5304063000003225,None,0,3,3,3,6.445533900005103,,,,,,6.433789599999727,6.445533900005103,6.928623899999366,6.928623899999366,6.928623899999366,7.462621000006038,b,1,0.5304063000003225,None,,,,,3,"001",2025-08-26_09h37.01.995,stroop task,,2025.2.0,60.15015885681194,2025-08-26 09h37.02.065857 +0530,
RED,red,C,r,4,0,1,r,1,0.5456532000025618,None,1,0,4,0,7.47851260000607,,,,,,7.467609200000879,7.47851260000607,7.978291800005536,7.978291800005536,7.978291800005536,8.529162500002712,r,1,0.5456532000025618,None,,,,,3,"001",2025-08-26_09h37.01.995,stroop task,,2025.2.0,60.15015885681194,2025-08-26 09h37.02.065857 +0530,
BLUE,blue,c,b,5,1,1,b,1,0.7503247999993619,None,1,1,5,3,8.544899900000019,,,,,,8.53368749999936,8.544899900000019,9.044682400002785,9.044682400002785,9.044682400002785,9.811484500001825,b,1,0.7503247999993619,None,,,,,3,"001",2025-08-26_09h37.01.995,stroop task,,2025.2.0,60.15015885681194,2025-08-26 09h37.02.065857 +0530,
RED,blue,I,b,6,2,1,r,0,0.7436586999974679,None,1,2,6,1,9.827551900001708,,,,,,9.815941500004556,9.827551900001708,10.310812200004875,10.310812200004875,10.310812200004875,11.06124180000188,r,0,0.7436586999974679,None,,,,,3,"001",2025-08-26_09h37.01.995,stroop task,,2025.2.0,60.15015885681194,2025-08-26 09h37.02.065857 +0530,
BLUE,red,I,r,7,3,1,b,0,0.5864309000025969,None,1,3,7,2,11.076785800003563,,,,,,11.065829800005304,11.076785800003563,11.576923000000534,11.576923000000534,11.576923000000534,12.177508100001432,b,0,0.5864309000025969,None,,,,,3,"001",2025-08-26_09h37.01.995,stroop task,,2025.2.0,60.15015885681194,2025-08-26 09h37.02.065857 +0530,
BLUE,red,I,r,8,0,2,r,1,1.2618872000020929,None,2,0,8,2,12.193229500000598,,,,,,12.178494600004342,12.193229500000598,12.676779300003545,12.676779300003545,12.676779300003545,13.943721700001333,r,1,1.2618872000020929,None,,,,,3,"001",2025-08-26_09h37.01.995,stroop task,,2025.2.0,60.15015885681194,2025-08-26 09h37.02.065857 +0530,
RED,blue,I,b,9,1,2,b,1,1.4484835999974166,None,2,1,9,1,13.959324900002684,,,,,,13.949649000001955,13.959324900002684,14.45949130000372,14.45949130000372,14.45949130000372,15.90970340000058,b,1,1.4484835999974166,None,,,,,3,"001",2025-08-26_09h37.01.995,stroop task,,2025.2.0,60.15015885681194,2025-08-26 09h37.02.065857 +0530,
BLUE,blue,c,b,10,2,2,b,1,1.0842195000004722,None,2,2,10,3,15.92522970000573,,,,,,15.914447300005122,15.92522970000573,16.42544430000271,16.42544430000271,16.42544430000271,17.52541320000455,b,1,1.0842195000004722,None,,,,,3,"001",2025-08-26_09h37.01.995,stroop task,,2025.2.0,60.15015885681194,2025-08-26 09h37.02.065857 +0530,
RED,red,C,r,11,3,2,r,1,0.7482079999972484,None,2,3,11,0,17.541380400005437,,,,,,17.52958430000581,17.541380400005437,18.02546070000244,18.02546070000244,18.02546070000244,18.77536250000412,r,1,0.7482079999972484,None,,,,,3,"001",2025-08-26_09h37.01.995,stroop task,,2025.2.0,60.15015885681194,2025-08-26 09h37.02.065857 +0530,
BLUE,red,I,r,12,0,3,r,1,1.1639708000002429,None,3,0,12,2,18.791129199998977,,,,,,18.780407700003707,18.791129199998977,19.274547100001655,19.274547100001655,19.274547100001655,20.441291900002398,r,1,1.1639708000002429,None,,,,,3,"001",2025-08-26_09h37.01.995,stroop task,,2025.2.0,60.15015885681194,2025-08-26 09h37.02.065857 +0530,
RED,red,C,r,13,1,3,r,1,1.482262500001525,None,3,1,13,0,20.45723540000472,,,,,,20.445772999999463,20.45723540000472,20.956978700000036,20.956978700000036,20.956978700000036,22.440772599999036,r,1,1.482262500001525,None,,,,,3,"001",2025-08-26_09h37.01.995,stroop task,,2025.2.0,60.15015885681194,2025-08-26 09h37.02.065857 +0530,
RED,blue,I,b,14,2,3,b,1,1.2359016999980668,None,3,2,14,1,22.456616700001177,,,,,,22.441826400005084,22.456616700001177,22.93981220000569,22.93981220000569,22.93981220000569,24.190149500005646,b,1,1.2359016999980668,None,,,,,3,"001",2025-08-26_09h37.01.995,stroop task,,2025.2.0,60.15015885681194,2025-08-26 09h37.02.065857 +0530,
BLUE,blue,c,b,15,3,3,b,1,0.43647679999412503,None,3,3,15,3,24.205904300004477,,,,,,24.194923499999277,24.205904300004477,24.689314600000216,24.689314600000216,24.689314600000216,25.13995740000246,b,1,0.43647679999412503,None,,,,,3,"001",2025-08-26_09h37.01.995,stroop task,,2025.2.0,60.15015885681194,2025-08-26 09h37.02.065857 +0530,
RED,red,C,r,16,0,4,r,1,0.6144134999995003,None,4,0,16,0,25.155554500001017,,,,,,25.144908200003556,25.155554500001017,25.638780200002657,25.638780200002657,25.638780200002657,26.25628630000574,r,1,0.6144134999995003,None,,,,,3,"001",2025-08-26_09h37.01.995,stroop task,,2025.2.0,60.15015885681194,2025-08-26 09h37.02.065857 +0530,
BLUE,red,I,r,17,1,4,r,1,0.6503950000042096,None,4,1,17,2,26.271841600006155,,,,,,26.260834600005182,26.271841600006155,26.77197359999991,26.77197359999991,26.77197359999991,27.438889400000335,r,1,0.6503950000042096,None,,,,,3,"001",2025-08-26_09h37.01.995,stroop task,,2025.2.0,60.15015885681194,2025-08-26 09h37.02.065857 +0530,
BLUE,blue,c,b,18,2,4,b,1,1.4401041000019177,None,4,2,18,3,27.45518710000033,,,,,,27.43976990000374,27.45518710000033,27.938139600002614,27.938139600002614,27.938139600002614,29.38851430000068,b,1,1.4401041000019177,None,,,,,3,"001",2025-08-26_09h37.01.995,stroop task,,2025.2.0,60.15015885681194,2025-08-26 09h37.02.065857 +0530,
RED,blue,I,b,19,3,4,b,1,1.5460985000026994,None,4,3,19,1,29.404169900000852,,,,,,29.393405800001347,29.404169900000852,29.8875990000015,29.8875990000015,29.8875990000015,31.438001900001836,b,1,1.5460985000026994,None,,,,,3,"001",2025-08-26_09h37.01.995,stroop task,,2025.2.0,60.15015885681194,2025-08-26 09h37.02.065857 +0530,
RED,blue,I,b,20,0,5,b,1,0.7115064000026905,None,5,0,20,1,31.45350590000453,,,,,,31.438947700000426,31.45350590000453,31.95373269999982,31.95373269999982,31.95373269999982,32.67061950000061,b,1,0.7115064000026905,None,,,,,3,"001",2025-08-26_09h37.01.995,stroop task,,2025.2.0,60.15015885681194,2025-08-26 09h37.02.065857 +0530,
BLUE,red,I,r,21,1,5,r,1,0.7737234000014723,None,5,1,21,2,32.68631450000248,,,,,,32.67554210000526,32.68631450000248,33.16981089999899,33.16981089999899,33.16981089999899,33.95377440000448,r,1,0.7737234000014723,None,,,,,3,"001",2025-08-26_09h37.01.995,stroop task,,2025.2.0,60.15015885681194,2025-08-26 09h37.02.065857 +0530,
RED,red,C,r,22,2,5,r,1,0.44765210000332445,None,5,2,22,0,33.969132700003684,,,,,,33.958930300002976,33.969132700003684,34.45268300000316,34.45268300000316,34.45268300000316,34.9031759999998,r,1,0.44765210000332445,None,,,,,3,"001",2025-08-26_09h37.01.995,stroop task,,2025.2.0,60.15015885681194,2025-08-26 09h37.02.065857 +0530,
BLUE,blue,c,b,23,3,5,b,1,0.8312370999992709,None,5,3,23,3,34.918804500004626,,,,,,34.90767700000288,34.918804500004626,35.40282010000374,35.40282010000374,35.40282010000374,36.235984999999346,b,1,0.8312370999992709,None,,,,,3,"001",2025-08-26_09h37.01.995,stroop task,,2025.2.0,60.15015885681194,2025-08-26 09h37.02.065857 +0530,
RED,blue,I,b,24,0,6,b,1,2.5288041999956477,None,6,0,24,1,36.25189820000378,,,,,,36.24074560000008,36.25189820000378,36.75208940000448,36.75208940000448,36.75208940000448,39.285086600000795,b,1,2.5288041999956477,None,,,,,3,"001",2025-08-26_09h37.01.995,stroop task,,2025.2.0,60.15015885681194,2025-08-26 09h37.02.065857 +0530,
BLUE,red,I,r,25,1,6,r,1,2.244146799996088,None,6,1,25,2,39.30081970000174,,,,,,39.28987980000238,39.30081970000174,39.78446210000402,39.78446210000402,39.78446210000402,42.03456080000615,r,1,2.244146799996088,None,,,,,3,"001",2025-08-26_09h37.01.995,stroop task,,2025.2.0,60.15015885681194,2025-08-26 09h37.02.065857 +0530,
RED,red,C,r,26,2,6,r,1,1.1267182000010507,None,6,2,26,0,42.04994160000206,,,,,,42.0393350000013,42.04994160000206,42.54973260000406,42.54973260000406,42.54973260000406,43.68342940000002,r,1,1.1267182000010507,None,,,,,3,"001",2025-08-26_09h37.01.995,stroop task,,2025.2.0,60.15015885681194,2025-08-26 09h37.02.065857 +0530,
BLUE,blue,c,b,27,3,6,b,1,0.7635455999989063,None,6,3,27,3,43.69945450000523,,,,,,43.68754570000601,43.69945450000523,44.18292800000199,44.18292800000199,44.18292800000199,44.94953610000084,b,1,0.7635455999989063,None,,,,,3,"001",2025-08-26_09h37.01.995,stroop task,,2025.2.0,60.15015885681194,2025-08-26 09h37.02.065857 +0530,
BLUE,blue,c,b,28,0,7,b,1,0.6281119000050239,None,7,0,28,3,44.96566480000183,,,,,,44.95041560000391,44.96566480000183,45.44918229999894,45.44918229999894,45.44918229999894,46.08297570000286,b,1,0.6281119000050239,None,,,,,3,"001",2025-08-26_09h37.01.995,stroop task,,2025.2.0,60.15015885681194,2025-08-26 09h37.02.065857 +0530,
BLUE,red,I,r,29,1,7,r,1,0.8617936999944504,None,7,1,29,2,46.0986211000054,,,,,,46.08394670000416,46.0986211000054,46.59870740000042,46.59870740000042,46.59870740000042,47.466129000000365,r,1,0.8617936999944504,None,,,,,3,"001",2025-08-26_09h37.01.995,stroop task,,2025.2.0,60.15015885681194,2025-08-26 09h37.02.065857 +0530,
RED,blue,I,b,30,2,7,b,1,1.2390576999969198,None,7,2,30,1,47.481467800003884,,,,,,47.470784200006165,47.481467800003884,47.98160270000517,47.98160270000517,47.98160270000517,49.23183010000503,b,1,1.2390576999969198,None,,,,,3,"001",2025-08-26_09h37.01.995,stroop task,,2025.2.0,60.15015885681194,2025-08-26 09h37.02.065857 +0530,
RED,red,C,r,31,3,7,r,1,0.6307773000007728,None,7,3,31,0,49.247519000004104,,,,,,49.23280340000201,49.247519000004104,49.73109300000215,49.73109300000215,49.73109300000215,50.36467840000114,r,1,0.6307773000007728,None,,,,,3,"001",2025-08-26_09h37.01.995,stroop task,,2025.2.0,60.15015885681194,2025-08-26 09h37.02.065857 +0530,
RED,blue,I,b,32,0,8,b,1,0.8851385000016307,None,8,0,32,1,50.38055780000286,,,,,,50.365682700001344,50.38055780000286,50.863879800002906,50.863879800002906,50.863879800002906,51.76388070000394,b,1,0.8851385000016307,None,,,,,3,"001",2025-08-26_09h37.01.995,stroop task,,2025.2.0,60.15015885681194,2025-08-26 09h37.02.065857 +0530,
BLUE,red,I,r,33,1,8,r,1,1.6253046999991057,None,8,1,33,2,51.77994420000323,,,,,,51.76796870000544,51.77994420000323,52.327462600005674,52.327462600005674,52.327462600005674,53.9635877000037,r,1,1.6253046999991057,None,,,,,3,"001",2025-08-26_09h37.01.995,stroop task,,2025.2.0,60.15015885681194,2025-08-26 09h37.02.065857 +0530,
RED,red,C,r,34,2,8,r,1,4.311447700005374,None,8,2,34,0,53.97934290000558,,,,,,53.968149500004074,53.97934290000558,54.46279770000547,54.46279770000547,54.46279770000547,58.77916620000178,r,1,4.311447700005374,None,,,,,3,"001",2025-08-26_09h37.01.995,stroop task,,2025.2.0,60.15015885681194,2025-08-26 09h37.02.065857 +0530,
BLUE,blue,c,b,35,3,8,b,1,1.172836699995969,None,8,3,35,3,58.79420050000044,,,,,,58.78359620000265,58.79420050000044,59.29448280000361,59.29448280000361,59.29448280000361,60.478276100002404,b,1,1.172836699995969,None,,,,,3,"001",2025-08-26_09h37.01.995,stroop task,,2025.2.0,60.15015885681194,2025-08-26 09h37.02.065857 +0530,
BLUE,red,I,r,36,0,9,r,1,2.148003999995126,None,9,0,36,2,60.49374330000137,,,,,,60.4792340999993,60.49374330000137,60.993976100005966,60.993976100005966,60.993976100005966,63.14299010000104,r,1,2.148003999995126,None,,,,,3,"001",2025-08-26_09h37.01.995,stroop task,,2025.2.0,60.15015885681194,2025-08-26 09h37.02.065857 +0530,
BLUE,blue,c,b,37,1,9,b,1,2.094568500004243,None,9,1,37,3,63.159691799999564,,,,,,63.143407900002785,63.159691799999564,63.643048000005365,63.643048000005365,63.643048000005365,65.74251290000393,b,1,2.094568500004243,None,,,,,3,"001",2025-08-26_09h37.01.995,stroop task,,2025.2.0,60.15015885681194,2025-08-26 09h37.02.065857 +0530,
RED,red,C,r,38,2,9,r,1,1.5803627999994205,None,9,2,38,0,65.75860890000331,,,,,,65.74631300000328,65.75860890000331,66.2420798000021,66.2420798000021,66.2420798000021,67.82563510000182,r,1,1.5803627999994205,None,,,,,3,"001",2025-08-26_09h37.01.995,stroop task,,2025.2.0,60.15015885681194,2025-08-26 09h37.02.065857 +0530,
RED,blue,I,b,39,3,9,b,1,3.0446417999992264,None,9,3,39,1,67.84116240000003,,,,,,67.82655640000303,67.84116240000003,68.32488410000224,68.32488410000224,68.32488410000224,71.37450140000146,b,1,3.0446417999992264,None,,,,,3,"001",2025-08-26_09h37.01.995,stroop task,,2025.2.0,60.15015885681194,2025-08-26 09h37.02.065857 +0530,
,,,,,,,,,,,,,,,,,,,,,,,,,,,,,,,71.37476500000048,71.38997899999958,72.3900791000051,72.37402770000335,3,"001",2025-08-26_09h37.01.995,stroop task,,2025.2.0,60.15015885681194,2025-08-26 09h37.02.065857 +0530,
